subj	amount	mean_rt	sem	answer	target	condition	amount/trial_num	amount/trial_num_per_block	order
2	23	0.2518257472826087	0.009355443597525935	correct	congruent	test	0.01842948717948718	0.4791666666666667	positive first
2	1	miss	miss	miss	congruent	test	miss	miss	positive first
2	14	0.3514927455357143	0.009709371961352886	correct	incongruent	test	0.011217948717948718	0.2916666666666667	positive first
2	10	0.22626953125	0.011888464717091755	incorrect	incongruent	test	0.008012820512820512	0.20833333333333334	positive first
2	198	0.27735854640151514	0.0036561060433898916	correct	congruent	baseline	0.15865384615384615	0.495	positive first
2	1	0.2978515625		incorrect	congruent	baseline	0.0008012820512820513	0.0025	positive first
2	1	miss	miss	miss	congruent	baseline	miss	miss	positive first
2	151	0.352513193294702	0.0039923293121511055	correct	incongruent	baseline	0.12099358974358974	0.3775	positive first
2	49	0.23134566326530612	0.00390170552063954	incorrect	incongruent	baseline	0.03926282051282051	0.1225	positive first
2	200	0.289248046875	0.004231009817489748	correct	congruent	positive	0.16025641025641027	0.5	positive first
2	161	0.3535944778726708	0.003000074600335698	correct	incongruent	positive	0.12900641025641027	0.4025	positive first
2	39	0.2486728766025641	0.01316582613523955	incorrect	incongruent	positive	0.03125	0.0975	positive first
2	195	0.2984725560897436	0.0039010098486092332	correct	congruent	negative	0.15625	0.4875	positive first
2	5	0.3189453125	0.027208440323795033	incorrect	congruent	negative	0.004006410256410256	0.0125	positive first
2	173	0.3645400559971098	0.0030200639406329386	correct	incongruent	negative	0.13862179487179488	0.4325	positive first
2	27	0.2514105902777778	0.005255418399858721	incorrect	incongruent	negative	0.021634615384615384	0.0675	positive first
3	24	miss	miss	miss	congruent	test	miss	miss	negative first
3	24	miss	miss	miss	incongruent	test	miss	miss	negative first
3	194	0.33135168331185566	0.005801300463976582	correct	congruent	baseline	0.15544871794871795	0.485	negative first
3	3	0.4127604166666667	0.04285516078341755	incorrect	congruent	baseline	0.002403846153846154	0.0075	negative first
3	3	miss	miss	miss	congruent	baseline	miss	miss	negative first
3	167	0.44870415419161674	0.0057724166541320695	correct	incongruent	baseline	0.13381410256410256	0.4175	negative first
3	32	0.307098388671875	0.01944333795443801	incorrect	incongruent	baseline	0.02564102564102564	0.08	negative first
3	1	miss	miss	miss	incongruent	baseline	miss	miss	negative first
3	199	0.3059683181532663	0.004708444218905704	correct	congruent	negative	0.1594551282051282	0.4975	negative first
3	1	0.3701171875		incorrect	congruent	negative	0.0008012820512820513	0.0025	negative first
3	175	0.3914174107142857	0.004520255299676389	correct	incongruent	negative	0.14022435897435898	0.4375	negative first
3	25	0.2599609375	0.005986309538952931	incorrect	incongruent	negative	0.020032051282051284	0.0625	negative first
3	197	0.31226205583756345	0.004961907221237958	correct	congruent	positive	0.1578525641025641	0.4925	negative first
3	3	0.5406901041666666	0.23861742884905052	incorrect	congruent	positive	0.002403846153846154	0.0075	negative first
3	168	0.4061918712797619	0.005797049432399218	correct	incongruent	positive	0.1346153846153846	0.42	negative first
3	31	0.2759891633064516	0.014087073249193956	incorrect	incongruent	positive	0.024839743589743588	0.0775	negative first
3	1	miss	miss	miss	incongruent	positive	miss	miss	negative first
4	24	0.3538411458333333	0.01036045553733133	correct	congruent	test	0.019230769230769232	0.5	positive first
4	22	0.46715198863636365	0.012571712968216213	correct	incongruent	test	0.017628205128205128	0.4583333333333333	positive first
4	2	0.34375	0.0009765625	incorrect	incongruent	test	0.0016025641025641025	0.041666666666666664	positive first
4	200	0.3563720703125	0.005532684187457356	correct	congruent	baseline	0.16025641025641027	0.5	positive first
4	193	0.4424384715025907	0.005175376812037542	correct	incongruent	baseline	0.1546474358974359	0.4825	positive first
4	7	0.37039620535714285	0.10368761207679718	incorrect	incongruent	baseline	0.005608974358974359	0.0175	positive first
4	199	0.3639633715452261	0.0059951456247256145	correct	congruent	positive	0.1594551282051282	0.4975	positive first
4	1	0.404296875		incorrect	congruent	positive	0.0008012820512820513	0.0025	positive first
4	194	0.43585897229381443	0.004517448526055308	correct	incongruent	positive	0.15544871794871795	0.485	positive first
4	6	0.3160807291666667	0.039946592492177746	incorrect	incongruent	positive	0.004807692307692308	0.015	positive first
4	198	0.36418383049242425	0.0058746352783585485	correct	congruent	negative	0.15865384615384615	0.495	positive first
4	2	0.4169921875	0.0341796875	incorrect	congruent	negative	0.0016025641025641025	0.005	positive first
4	192	0.4255625406901042	0.004964948853661156	correct	incongruent	negative	0.15384615384615385	0.48	positive first
4	8	0.4150390625	0.09434123031449383	incorrect	incongruent	negative	0.00641025641025641	0.02	positive first
5	24	0.3151448567708333	0.01933338541396093	correct	congruent	test	0.019230769230769232	0.5	negative first
5	21	0.37411644345238093	0.011474170014761774	correct	incongruent	test	0.016826923076923076	0.4375	negative first
5	3	0.2294921875	0.03251136776601266	incorrect	incongruent	test	0.002403846153846154	0.0625	negative first
5	197	0.3111268638959391	0.005665596870961078	correct	congruent	baseline	0.1578525641025641	0.4925	negative first
5	3	0.3896484375	0.16169213215676187	incorrect	congruent	baseline	0.002403846153846154	0.0075	negative first
5	186	0.3624831989247312	0.003782121577244427	correct	incongruent	baseline	0.14903846153846154	0.465	negative first
5	14	0.24114118303571427	0.006476540413838003	incorrect	incongruent	baseline	0.011217948717948718	0.035	negative first
5	199	0.34304824905778897	0.00552105103393061	correct	congruent	negative	0.1594551282051282	0.4975	negative first
5	1	0.4814453125		incorrect	congruent	negative	0.0008012820512820513	0.0025	negative first
5	193	0.38746255667098445	0.00423622541422659	correct	incongruent	negative	0.1546474358974359	0.4825	negative first
5	7	0.27064732142857145	0.009122291027035092	incorrect	incongruent	negative	0.005608974358974359	0.0175	negative first
5	199	0.3506350109924623	0.007055486488074697	correct	congruent	positive	0.1594551282051282	0.4975	negative first
5	1	0.427734375		incorrect	congruent	positive	0.0008012820512820513	0.0025	negative first
5	192	0.3790740966796875	0.003989138557231925	correct	incongruent	positive	0.15384615384615385	0.48	negative first
5	8	0.2535400390625	0.009205359647226434	incorrect	incongruent	positive	0.00641025641025641	0.02	negative first
6	24	0.3349609375	0.012417651946699387	correct	congruent	test	0.019230769230769232	0.5	positive first
6	23	0.402046535326087	0.013667384995336396	correct	incongruent	test	0.01842948717948718	0.4791666666666667	positive first
6	1	0.2587890625		incorrect	incongruent	test	0.0008012820512820513	0.020833333333333332	positive first
6	198	0.33362432922979796	0.00570841070505876	correct	congruent	baseline	0.15865384615384615	0.495	positive first
6	2	0.3662109375	0.07617187499999999	incorrect	congruent	baseline	0.0016025641025641025	0.005	positive first
6	185	0.3728568412162162	0.0043143220487336315	correct	incongruent	baseline	0.1482371794871795	0.4625	positive first
6	15	0.26223958333333336	0.006315823243915862	incorrect	incongruent	baseline	0.01201923076923077	0.0375	positive first
6	196	0.3208057637117347	0.005189813385156269	correct	congruent	positive	0.15705128205128205	0.49	positive first
6	4	0.4169921875	0.007447956503025749	incorrect	congruent	positive	0.003205128205128205	0.01	positive first
6	188	0.36094892785904253	0.003796429988301356	correct	incongruent	positive	0.15064102564102563	0.47	positive first
6	12	0.25537109375	0.014421027155699016	incorrect	incongruent	positive	0.009615384615384616	0.03	positive first
6	196	0.3102279974489796	0.0043096429030874414	correct	congruent	negative	0.15705128205128205	0.49	positive first
6	4	0.341552734375	0.02798544557682989	incorrect	congruent	negative	0.003205128205128205	0.01	positive first
6	188	0.351313164893617	0.0036828305100020794	correct	incongruent	negative	0.15064102564102563	0.47	positive first
6	12	0.2501627604166667	0.006330940865487216	incorrect	incongruent	negative	0.009615384615384616	0.03	positive first
7	24	0.3240559895833333	0.011948355632349375	correct	congruent	test	0.019230769230769232	0.5	negative first
7	20	0.46875	0.040823349543122035	correct	incongruent	test	0.016025641025641024	0.4166666666666667	negative first
7	4	0.257568359375	0.019352925348732928	incorrect	incongruent	test	0.003205128205128205	0.08333333333333333	negative first
7	198	0.3614810211489899	0.00611390636519277	correct	congruent	baseline	0.15865384615384615	0.495	negative first
7	2	0.3974609375	0.0009765625	incorrect	congruent	baseline	0.0016025641025641025	0.005	negative first
7	193	0.4223405116580311	0.006041401510899719	correct	incongruent	baseline	0.1546474358974359	0.4825	negative first
7	7	0.24428013392857142	0.01291594526106676	incorrect	incongruent	baseline	0.005608974358974359	0.0175	negative first
7	198	0.3451112689393939	0.005275408299329646	correct	congruent	negative	0.15865384615384615	0.495	negative first
7	1	0.4326171875		incorrect	congruent	negative	0.0008012820512820513	0.0025	negative first
7	1	miss	miss	miss	congruent	negative	miss	miss	negative first
7	195	0.4260216346153846	0.006486957134409071	correct	incongruent	negative	0.15625	0.4875	negative first
7	5	0.313671875	0.03631630982259706	incorrect	incongruent	negative	0.004006410256410256	0.0125	negative first
7	199	0.34947687657035176	0.005667659518016978	correct	congruent	positive	0.1594551282051282	0.4975	negative first
7	1	0.353515625		incorrect	congruent	positive	0.0008012820512820513	0.0025	negative first
7	190	0.40753495065789475	0.004710492984189734	correct	incongruent	positive	0.15224358974358973	0.475	negative first
7	10	0.2666015625	0.009177147624396443	incorrect	incongruent	positive	0.008012820512820512	0.025	negative first
8	24	0.3598225911458333	0.026064167805959552	correct	congruent	test	0.019230769230769232	0.5	positive first
8	21	0.43080357142857145	0.017856143741813282	correct	incongruent	test	0.016826923076923076	0.4375	positive first
8	3	0.2421875	0.021602421904996172	incorrect	incongruent	test	0.002403846153846154	0.0625	positive first
8	199	0.33928431218592964	0.005946161361306591	correct	congruent	baseline	0.1594551282051282	0.4975	positive first
8	1	0.353515625		incorrect	congruent	baseline	0.0008012820512820513	0.0025	positive first
8	180	0.40352647569444444	0.005602997809441843	correct	incongruent	baseline	0.14423076923076922	0.45	positive first
8	20	0.2619140625	0.008757768208636064	incorrect	incongruent	baseline	0.016025641025641024	0.05	positive first
8	196	0.3169543207908163	0.006419347265814895	correct	congruent	positive	0.15705128205128205	0.49	positive first
8	4	0.359619140625	0.02534167143313526	incorrect	congruent	positive	0.003205128205128205	0.01	positive first
8	181	0.36431176622928174	0.003678638654316116	correct	incongruent	positive	0.1450320512820513	0.4525	positive first
8	19	0.2718441611842105	0.013481107795047865	incorrect	incongruent	positive	0.015224358974358974	0.0475	positive first
8	191	0.33696519142670156	0.006649692761793604	correct	congruent	negative	0.1530448717948718	0.4775	positive first
8	5	0.3775390625	0.014812235254424697	incorrect	congruent	negative	0.004006410256410256	0.0125	positive first
8	4	miss	miss	miss	congruent	negative	miss	miss	positive first
8	184	0.38485054347826086	0.004648778389912125	correct	incongruent	negative	0.14743589743589744	0.46	positive first
8	13	0.3125	0.025454108875657896	incorrect	incongruent	negative	0.010416666666666666	0.0325	positive first
8	3	miss	miss	miss	incongruent	negative	miss	miss	positive first
9	22	0.3034002130681818	0.013648510899167321	correct	congruent	test	0.017628205128205128	0.4583333333333333	negative first
9	1	0.107421875		incorrect	congruent	test	0.0008012820512820513	0.020833333333333332	negative first
9	1	miss	miss	miss	congruent	test	miss	miss	negative first
9	19	0.3756167763157895	0.010706880431784542	correct	incongruent	test	0.015224358974358974	0.3958333333333333	negative first
9	5	0.212890625	0.04742817316856534	incorrect	incongruent	test	0.004006410256410256	0.10416666666666667	negative first
9	198	0.2987245501893939	0.004557696089224285	correct	congruent	baseline	0.15865384615384615	0.495	negative first
9	2	0.236328125	0.01953125	incorrect	congruent	baseline	0.0016025641025641025	0.005	negative first
9	156	0.39172676282051283	0.0053418857478726295	correct	incongruent	baseline	0.125	0.39	negative first
9	43	0.2571765988372093	0.006456216541826151	incorrect	incongruent	baseline	0.03445512820512821	0.1075	negative first
9	1	miss	miss	miss	incongruent	baseline	miss	miss	negative first
9	200	0.33724609375	0.006844328964293628	correct	congruent	negative	0.16025641025641027	0.5	negative first
9	194	0.3977277303479381	0.0032011304884061653	correct	incongruent	negative	0.15544871794871795	0.485	negative first
9	6	0.2589518229166667	0.012736353600228617	incorrect	incongruent	negative	0.004807692307692308	0.015	negative first
9	200	0.32896484375	0.003459741705842185	correct	congruent	positive	0.16025641025641027	0.5	negative first
9	194	0.41624718105670105	0.005151134895498093	correct	incongruent	positive	0.15544871794871795	0.485	negative first
9	6	0.2613932291666667	0.010773706914889323	incorrect	incongruent	positive	0.004807692307692308	0.015	negative first
10	24	0.2696126302083333	0.016741660954336723	correct	congruent	test	0.019230769230769232	0.5	positive first
10	15	0.33209635416666666	0.008595476073500613	correct	incongruent	test	0.01201923076923077	0.3125	positive first
10	9	0.2025824652777778	0.008452753652509718	incorrect	incongruent	test	0.007211538461538462	0.1875	positive first
10	199	0.2720634422110553	0.003332205700279441	correct	congruent	baseline	0.1594551282051282	0.4975	positive first
10	1	miss	miss	miss	congruent	baseline	miss	miss	positive first
10	155	0.3411731350806452	0.0031840765954301788	correct	incongruent	baseline	0.12419871794871795	0.3875	positive first
10	45	0.2413845486111111	0.008262033846064297	incorrect	incongruent	baseline	0.036057692307692304	0.1125	positive first
10	197	0.24751645780456852	0.002725367177298011	correct	congruent	positive	0.1578525641025641	0.4925	positive first
10	3	0.2884114583333333	0.06794033893953712	incorrect	congruent	positive	0.002403846153846154	0.0075	positive first
10	137	0.3182952212591241	0.004248940749665631	correct	incongruent	positive	0.10977564102564102	0.3425	positive first
10	62	0.22454637096774194	0.0037028310081727	incorrect	incongruent	positive	0.049679487179487176	0.155	positive first
10	1	miss	miss	miss	incongruent	positive	miss	miss	positive first
10	199	0.24336526381909548	0.0018827358101524906	correct	congruent	negative	0.1594551282051282	0.4975	positive first
10	1	miss	miss	miss	congruent	negative	miss	miss	positive first
10	146	0.3021190068493151	0.0021859079038753946	correct	incongruent	negative	0.11698717948717949	0.365	positive first
10	54	0.22343388310185186	0.0037560753160574634	incorrect	incongruent	negative	0.04326923076923077	0.135	positive first
11	24	0.3570149739583333	0.04075756904274507	correct	congruent	test	0.019230769230769232	0.5	positive first
11	20	0.36474609375	0.009412429777952497	correct	incongruent	test	0.016025641025641024	0.4166666666666667	positive first
11	4	0.214111328125	0.007734545567747795	incorrect	incongruent	test	0.003205128205128205	0.08333333333333333	positive first
11	199	0.2869670618718593	0.0039152759534611765	correct	congruent	baseline	0.1594551282051282	0.4975	positive first
11	1	0.2783203125		incorrect	congruent	baseline	0.0008012820512820513	0.0025	positive first
11	178	0.35515054424157305	0.0035845246023950873	correct	incongruent	baseline	0.14262820512820512	0.445	positive first
11	22	0.23344282670454544	0.004471238631946832	incorrect	incongruent	baseline	0.017628205128205128	0.055	positive first
11	199	0.2872664101758794	0.007198456600096055	correct	congruent	positive	0.1594551282051282	0.4975	positive first
11	1	0.25390625		incorrect	congruent	positive	0.0008012820512820513	0.0025	positive first
11	175	0.3370982142857143	0.0031994929373434368	correct	incongruent	positive	0.14022435897435898	0.4375	positive first
11	25	0.233984375	0.005528873371240141	incorrect	incongruent	positive	0.020032051282051284	0.0625	positive first
11	198	0.27152383207070707	0.00354738158944628	correct	congruent	negative	0.15865384615384615	0.495	positive first
11	2	0.302734375	0.0439453125	incorrect	congruent	negative	0.0016025641025641025	0.005	positive first
11	162	0.3378122588734568	0.003510479389643002	correct	incongruent	negative	0.12980769230769232	0.405	positive first
11	38	0.22486636513157895	0.005124603850490684	incorrect	incongruent	negative	0.030448717948717948	0.095	positive first
12	24	0.3251953125	0.010153330507694505	correct	congruent	test	0.019230769230769232	0.5	negative first
12	16	0.45660400390625	0.020011981067604927	correct	incongruent	test	0.01282051282051282	0.3333333333333333	negative first
12	7	0.30538504464285715	0.020620124412048586	incorrect	incongruent	test	0.005608974358974359	0.14583333333333334	negative first
12	1	miss	miss	miss	incongruent	test	miss	miss	negative first
12	196	0.3709193638392857	0.006269403775849295	correct	congruent	baseline	0.15705128205128205	0.49	negative first
12	4	0.3759765625	0.03794377849311578	incorrect	congruent	baseline	0.003205128205128205	0.01	negative first
12	180	0.4685546875	0.008644796833421783	correct	incongruent	baseline	0.14423076923076922	0.45	negative first
12	17	0.32869944852941174	0.02351159129172915	incorrect	incongruent	baseline	0.013621794871794872	0.0425	negative first
12	3	miss	miss	miss	incongruent	baseline	miss	miss	negative first
12	198	0.35102982954545453	0.005419526640088888	correct	congruent	negative	0.15865384615384615	0.495	negative first
12	2	miss	miss	miss	congruent	negative	miss	miss	negative first
12	175	0.44590401785714284	0.006737633510461372	correct	incongruent	negative	0.14022435897435898	0.4375	negative first
12	22	0.3064630681818182	0.011878247179063255	incorrect	incongruent	negative	0.017628205128205128	0.055	negative first
12	3	miss	miss	miss	incongruent	negative	miss	miss	negative first
12	198	0.35859572285353536	0.006042094270565295	correct	congruent	positive	0.15865384615384615	0.495	negative first
12	2	0.34521484375	0.006347656249999999	incorrect	congruent	positive	0.0016025641025641025	0.005	negative first
12	182	0.4659437242445055	0.00825370170574757	correct	incongruent	positive	0.14583333333333334	0.455	negative first
12	17	0.32479319852941174	0.029184409354923956	incorrect	incongruent	positive	0.013621794871794872	0.0425	negative first
12	1	miss	miss	miss	incongruent	positive	miss	miss	negative first
13	23	0.3211616847826087	0.016357997034658945	correct	congruent	test	0.01842948717948718	0.4791666666666667	positive first
13	1	0.25		incorrect	congruent	test	0.0008012820512820513	0.020833333333333332	positive first
13	21	0.3781622023809524	0.009290405504372526	correct	incongruent	test	0.016826923076923076	0.4375	positive first
13	1	0.2763671875		incorrect	incongruent	test	0.0008012820512820513	0.020833333333333332	positive first
13	2	miss	miss	miss	incongruent	test	miss	miss	positive first
13	197	0.2878182503172589	0.00548827752638229	correct	congruent	baseline	0.1578525641025641	0.4925	positive first
13	3	0.3346354166666667	0.013008620574666722	incorrect	congruent	baseline	0.002403846153846154	0.0075	positive first
13	178	0.3475849280196629	0.002713065242111759	correct	incongruent	baseline	0.14262820512820512	0.445	positive first
13	22	0.25426136363636365	0.009224414210128222	incorrect	incongruent	baseline	0.017628205128205128	0.055	positive first
13	196	0.28675562021683676	0.002647124388196706	correct	congruent	positive	0.15705128205128205	0.49	positive first
13	4	0.31298828125	0.014542258409995538	incorrect	congruent	positive	0.003205128205128205	0.01	positive first
13	180	0.3287163628472222	0.0018470812177332745	correct	incongruent	positive	0.14423076923076922	0.45	positive first
13	20	0.2580078125	0.006327499943748505	incorrect	incongruent	positive	0.016025641025641024	0.05	positive first
13	195	0.2847305689102564	0.002112899443868484	correct	congruent	negative	0.15625	0.4875	positive first
13	5	0.2890625	0.012441114964211783	incorrect	congruent	negative	0.004006410256410256	0.0125	positive first
13	183	0.33470478995901637	0.0022931933163325255	correct	incongruent	negative	0.1466346153846154	0.4575	positive first
13	17	0.27734375	0.014977210066591844	incorrect	incongruent	negative	0.013621794871794872	0.0425	positive first
14	23	0.48063858695652173	0.016869108218209795	correct	congruent	test	0.01842948717948718	0.4791666666666667	negative first
14	1	0.3583984375		incorrect	congruent	test	0.0008012820512820513	0.020833333333333332	negative first
14	22	0.5510031960227273	0.02730914769422031	correct	incongruent	test	0.017628205128205128	0.4583333333333333	negative first
14	2	0.310546875	0.020507812499999997	incorrect	incongruent	test	0.0016025641025641025	0.041666666666666664	negative first
14	199	0.3302989557160804	0.004022118392506106	correct	congruent	baseline	0.1594551282051282	0.4975	negative first
14	1	0.390625		incorrect	congruent	baseline	0.0008012820512820513	0.0025	negative first
14	192	0.4140981038411458	0.0038550003948662572	correct	incongruent	baseline	0.15384615384615385	0.48	negative first
14	8	0.3031005859375	0.010486989836103395	incorrect	incongruent	baseline	0.00641025641025641	0.02	negative first
14	194	0.33048083118556704	0.0035860818934657173	correct	congruent	negative	0.15544871794871795	0.485	negative first
14	6	0.36181640625	0.01103630847598137	incorrect	congruent	negative	0.004807692307692308	0.015	negative first
14	188	0.40190221908244683	0.003797722777626349	correct	incongruent	negative	0.15064102564102563	0.47	negative first
14	12	0.2887369791666667	0.007050636700108273	incorrect	incongruent	negative	0.009615384615384616	0.03	negative first
14	200	0.33703125	0.0038870676739954095	correct	congruent	positive	0.16025641025641027	0.5	negative first
14	187	0.40821356951871657	0.004250794219500779	correct	incongruent	positive	0.14983974358974358	0.4675	negative first
14	13	0.3513371394230769	0.02463272318545003	incorrect	incongruent	positive	0.010416666666666666	0.0325	negative first
15	24	0.3894856770833333	0.015241439317393	correct	congruent	test	0.019230769230769232	0.5	positive first
15	21	0.48442150297619047	0.017303744318158662	correct	incongruent	test	0.016826923076923076	0.4375	positive first
15	2	0.1650390625	0.10546875	incorrect	incongruent	test	0.0016025641025641025	0.041666666666666664	positive first
15	1	miss	miss	miss	incongruent	test	miss	miss	positive first
15	197	0.35795229219543145	0.005939168364586702	correct	congruent	baseline	0.1578525641025641	0.4925	positive first
15	3	0.3610026041666667	0.0529159121321903	incorrect	congruent	baseline	0.002403846153846154	0.0075	positive first
15	184	0.4246932319972826	0.005044582824118205	correct	incongruent	baseline	0.14743589743589744	0.46	positive first
15	16	0.3065185546875	0.039754898133382274	incorrect	incongruent	baseline	0.01282051282051282	0.04	positive first
15	200	0.338193359375	0.007297885653492561	correct	congruent	positive	0.16025641025641027	0.5	positive first
15	178	0.3921172752808989	0.004126822240746108	correct	incongruent	positive	0.14262820512820512	0.445	positive first
15	20	0.259765625	0.006598693927718303	incorrect	incongruent	positive	0.016025641025641024	0.05	positive first
15	2	miss	miss	miss	incongruent	positive	miss	miss	positive first
15	199	0.35974305119346733	0.010963002661907235	correct	congruent	negative	0.1594551282051282	0.4975	positive first
15	1	0.646484375		incorrect	congruent	negative	0.0008012820512820513	0.0025	positive first
15	181	0.380584210980663	0.004462026690863612	correct	incongruent	negative	0.1450320512820513	0.4525	positive first
15	19	0.2749794407894737	0.0057982907037697675	incorrect	incongruent	negative	0.015224358974358974	0.0475	positive first
16	24	0.3348388671875	0.03487299638699254	correct	congruent	test	0.019230769230769232	0.5	negative first
16	22	0.35071910511363635	0.005621060933763004	correct	incongruent	test	0.017628205128205128	0.4583333333333333	negative first
16	2	0.263671875	0.0224609375	incorrect	incongruent	test	0.0016025641025641025	0.041666666666666664	negative first
16	198	0.3066998106060606	0.0035231955631348936	correct	congruent	baseline	0.15865384615384615	0.495	negative first
16	2	0.41259765625	0.03662109375	incorrect	congruent	baseline	0.0016025641025641025	0.005	negative first
16	185	0.3519953547297297	0.0024926551641175298	correct	incongruent	baseline	0.1482371794871795	0.4625	negative first
16	15	0.2482421875	0.009101885819671128	incorrect	incongruent	baseline	0.01201923076923077	0.0375	negative first
16	198	0.28465810448232326	0.0032173188885277703	correct	congruent	negative	0.15865384615384615	0.495	negative first
16	2	0.27734375	0.0029296874999999996	incorrect	congruent	negative	0.0016025641025641025	0.005	negative first
16	184	0.32889988111413043	0.0023288719653760254	correct	incongruent	negative	0.14743589743589744	0.46	negative first
16	16	0.2303466796875	0.006125854302857658	incorrect	incongruent	negative	0.01282051282051282	0.04	negative first
16	200	0.2899951171875	0.003017229567932728	correct	congruent	positive	0.16025641025641027	0.5	negative first
16	182	0.33748282967032966	0.002241778744341369	correct	incongruent	positive	0.14583333333333334	0.455	negative first
16	18	0.2611219618055556	0.016847752216255816	incorrect	incongruent	positive	0.014423076923076924	0.045	negative first
17	24	0.3896484375	0.021718315857577348	correct	congruent	test	0.019230769230769232	0.5	positive first
17	22	0.4665305397727273	0.01615287310670304	correct	incongruent	test	0.017628205128205128	0.4583333333333333	positive first
17	2	0.33154296875	0.06982421875	incorrect	incongruent	test	0.0016025641025641025	0.041666666666666664	positive first
17	200	0.524765625	0.006402876805462804	correct	congruent	baseline	0.16025641025641027	0.5	positive first
17	196	0.560302734375	0.005643443018069447	correct	incongruent	baseline	0.15705128205128205	0.49	positive first
17	4	0.289306640625	0.021629536676545824	incorrect	incongruent	baseline	0.003205128205128205	0.01	positive first
17	200	0.4475244140625	0.006425986779252639	correct	congruent	positive	0.16025641025641027	0.5	positive first
17	195	0.4631911057692308	0.005017185475882635	correct	incongruent	positive	0.15625	0.4875	positive first
17	5	0.2716796875	0.027243118397129208	incorrect	incongruent	positive	0.004006410256410256	0.0125	positive first
17	200	0.4083056640625	0.005010698639966024	correct	congruent	negative	0.16025641025641027	0.5	positive first
17	193	0.44519106217616583	0.004391423388807014	correct	incongruent	negative	0.1546474358974359	0.4825	positive first
17	7	0.37332589285714285	0.03892724111141294	incorrect	incongruent	negative	0.005608974358974359	0.0175	positive first
18	24	0.4016927083333333	0.041505307658742906	correct	congruent	test	0.019230769230769232	0.5	negative first
18	21	0.43698846726190477	0.009143755229104772	correct	incongruent	test	0.016826923076923076	0.4375	negative first
18	3	0.2845052083333333	0.010027943880696201	incorrect	incongruent	test	0.002403846153846154	0.0625	negative first
18	194	0.41046834729381443	0.008303431503785529	correct	congruent	baseline	0.15544871794871795	0.485	negative first
18	6	0.4108072916666667	0.01666018041917291	incorrect	congruent	baseline	0.004807692307692308	0.015	negative first
18	184	0.4761803668478261	0.006265792385315131	correct	incongruent	baseline	0.14743589743589744	0.46	negative first
18	16	0.40167236328125	0.023959259692541066	incorrect	incongruent	baseline	0.01282051282051282	0.04	negative first
18	196	0.38186583227040816	0.006137827430369419	correct	congruent	negative	0.15705128205128205	0.49	negative first
18	4	0.44287109375	0.031559996049217554	incorrect	congruent	negative	0.003205128205128205	0.01	negative first
18	189	0.45284598214285715	0.005234601697890967	correct	incongruent	negative	0.15144230769230768	0.4725	negative first
18	11	0.3537819602272727	0.012982366399455336	incorrect	incongruent	negative	0.008814102564102564	0.0275	negative first
18	200	0.37751953125	0.004153060576602241	correct	congruent	positive	0.16025641025641027	0.5	negative first
18	191	0.4825548102094241	0.006755461367305827	correct	incongruent	positive	0.1530448717948718	0.4775	negative first
18	9	0.3755425347222222	0.013158564274777455	incorrect	incongruent	positive	0.007211538461538462	0.0225	negative first
19	24	0.335693359375	0.014507794263703416	correct	congruent	test	0.019230769230769232	0.5	positive first
19	20	0.397119140625	0.01134359476946482	correct	incongruent	test	0.016025641025641024	0.4166666666666667	positive first
19	4	0.260498046875	0.016255072755583307	incorrect	incongruent	test	0.003205128205128205	0.08333333333333333	positive first
19	200	0.300263671875	0.0033052597976043828	correct	congruent	baseline	0.16025641025641027	0.5	positive first
19	162	0.3838975694444444	0.004104875314881137	correct	incongruent	baseline	0.12980769230769232	0.405	positive first
19	38	0.2637746710526316	0.004960785769273654	incorrect	incongruent	baseline	0.030448717948717948	0.095	positive first
19	200	0.2982080078125	0.0037620811011789086	correct	congruent	positive	0.16025641025641027	0.5	positive first
19	167	0.3647665606287425	0.004314124643253438	correct	incongruent	positive	0.13381410256410256	0.4175	positive first
19	32	0.2503662109375	0.005307127101310826	incorrect	incongruent	positive	0.02564102564102564	0.08	positive first
19	1	miss	miss	miss	incongruent	positive	miss	miss	positive first
19	198	0.2960710621843434	0.003215111796453296	correct	congruent	negative	0.15865384615384615	0.495	positive first
19	2	0.3603515625	0.0009765625	incorrect	congruent	negative	0.0016025641025641025	0.005	positive first
19	173	0.36000722543352603	0.00394481677883472	correct	incongruent	negative	0.13862179487179488	0.4325	positive first
19	27	0.2642867476851852	0.004710082559429385	incorrect	incongruent	negative	0.021634615384615384	0.0675	positive first
20	24	0.2765299479166667	0.014331237225703137	correct	congruent	test	0.019230769230769232	0.5	negative first
20	17	0.3516199448529412	0.0065645983828534265	correct	incongruent	test	0.013621794871794872	0.3541666666666667	negative first
20	7	0.2353515625	0.012297377718213735	incorrect	incongruent	test	0.005608974358974359	0.14583333333333334	negative first
20	198	0.24968434343434343	0.003532074092335162	correct	congruent	baseline	0.15865384615384615	0.495	negative first
20	2	0.31494140625	0.014160156249999998	incorrect	congruent	baseline	0.0016025641025641025	0.005	negative first
20	112	0.3214634486607143	0.0034257078126803463	correct	incongruent	baseline	0.08974358974358974	0.28	negative first
20	88	0.21417791193181818	0.002482066223586025	incorrect	incongruent	baseline	0.07051282051282051	0.22	negative first
20	196	0.2410265864158163	0.0025393416563392356	correct	congruent	negative	0.15705128205128205	0.49	negative first
20	4	0.283935546875	0.036320106414409366	incorrect	congruent	negative	0.003205128205128205	0.01	negative first
20	96	0.31787109375	0.006049203250916262	correct	incongruent	negative	0.07692307692307693	0.24	negative first
20	104	0.2132286658653846	0.002157894940861773	incorrect	incongruent	negative	0.08333333333333333	0.26	negative first
20	194	0.24772974387886598	0.0033033813136424963	correct	congruent	positive	0.15544871794871795	0.485	negative first
20	6	0.2932942708333333	0.01725444663903901	incorrect	congruent	positive	0.004807692307692308	0.015	negative first
20	101	0.31450146967821785	0.0033179620096733834	correct	incongruent	positive	0.08092948717948718	0.2525	negative first
20	99	0.21429135101010102	0.0024238455589164587	incorrect	incongruent	positive	0.07932692307692307	0.2475	negative first
22	23	0.40281080163043476	0.022700724458115995	correct	congruent	test	0.01842948717948718	0.4791666666666667	negative first
22	1	1.533203125		incorrect	congruent	test	0.0008012820512820513	0.020833333333333332	negative first
22	22	0.4642666903409091	0.03861796288436283	correct	incongruent	test	0.017628205128205128	0.4583333333333333	negative first
22	2	0.29150390625	0.04052734374999999	incorrect	incongruent	test	0.0016025641025641025	0.041666666666666664	negative first
22	197	0.3535651967005076	0.006548279381754733	correct	congruent	baseline	0.1578525641025641	0.4925	negative first
22	3	0.3499348958333333	0.06416229497376098	incorrect	congruent	baseline	0.002403846153846154	0.0075	negative first
22	186	0.4093161962365591	0.005246662623064838	correct	incongruent	baseline	0.14903846153846154	0.465	negative first
22	14	0.2660435267857143	0.014459676332859035	incorrect	incongruent	baseline	0.011217948717948718	0.035	negative first
22	199	0.3901833385678392	0.006209717941861249	correct	congruent	negative	0.1594551282051282	0.4975	negative first
22	1	miss	miss	miss	congruent	negative	miss	miss	negative first
22	189	0.45968708664021163	0.006173894182126796	correct	incongruent	negative	0.15144230769230768	0.4725	negative first
22	10	0.28583984375	0.021628428241938624	incorrect	incongruent	negative	0.008012820512820512	0.025	negative first
22	1	miss	miss	miss	incongruent	negative	miss	miss	negative first
22	200	0.3897021484375	0.006527136935799212	correct	congruent	positive	0.16025641025641027	0.5	negative first
22	190	0.4554738898026316	0.004646641440722582	correct	incongruent	positive	0.15224358974358973	0.475	negative first
22	10	0.28701171875	0.011982925488743211	incorrect	incongruent	positive	0.008012820512820512	0.025	negative first
23	24	0.2886149088541667	0.020963069640210934	correct	congruent	test	0.019230769230769232	0.5	positive first
23	19	0.3623046875	0.014134976399290603	correct	incongruent	test	0.015224358974358974	0.3958333333333333	positive first
23	5	0.2578125	0.007340476747252396	incorrect	incongruent	test	0.004006410256410256	0.10416666666666667	positive first
23	198	0.24366714015151514	0.0023594643670647535	correct	congruent	baseline	0.15865384615384615	0.495	positive first
23	2	0.17919921875	0.04833984374999999	incorrect	congruent	baseline	0.0016025641025641025	0.005	positive first
23	151	0.3203125	0.002549537818711816	correct	incongruent	baseline	0.12099358974358974	0.3775	positive first
23	49	0.2195671237244898	0.0038793085719914687	incorrect	incongruent	baseline	0.03926282051282051	0.1225	positive first
23	197	0.24179588356598986	0.002439788663992518	correct	congruent	positive	0.1578525641025641	0.4925	positive first
23	3	0.2503255208333333	0.008138020833333334	incorrect	congruent	positive	0.002403846153846154	0.0075	positive first
23	159	0.30721182193396224	0.003530975848722085	correct	incongruent	positive	0.12740384615384615	0.3975	positive first
23	41	0.22117949695121952	0.004661415774042531	incorrect	incongruent	positive	0.032852564102564104	0.1025	positive first
23	196	0.24835578762755103	0.002248473116359579	correct	congruent	negative	0.15705128205128205	0.49	positive first
23	4	0.2861328125	0.018906848572222253	incorrect	congruent	negative	0.003205128205128205	0.01	positive first
23	166	0.31253529743975905	0.0029996013811324847	correct	incongruent	negative	0.1330128205128205	0.415	positive first
23	34	0.22880284926470587	0.004567202451500281	incorrect	incongruent	negative	0.027243589743589744	0.085	positive first
24	24	0.2972412109375	0.012715547865242495	correct	congruent	test	0.019230769230769232	0.5	negative first
24	20	0.367041015625	0.008998798167421856	correct	incongruent	test	0.016025641025641024	0.4166666666666667	negative first
24	4	0.24853515625	0.010760667106813539	incorrect	incongruent	test	0.003205128205128205	0.08333333333333333	negative first
24	198	0.3023940577651515	0.003450920142110287	correct	congruent	baseline	0.15865384615384615	0.495	negative first
24	2	0.3994140625	0.04589843749999999	incorrect	congruent	baseline	0.0016025641025641025	0.005	negative first
24	182	0.3616715315934066	0.003425346580680536	correct	incongruent	baseline	0.14583333333333334	0.455	negative first
24	18	0.2616102430555556	0.006676743730588393	incorrect	incongruent	baseline	0.014423076923076924	0.045	negative first
24	191	0.2996717522905759	0.004130971083969428	correct	congruent	negative	0.1530448717948718	0.4775	negative first
24	9	0.4879557291666667	0.10016829316590083	incorrect	congruent	negative	0.007211538461538462	0.0225	negative first
24	176	0.33441162109375	0.003075015688854042	correct	incongruent	negative	0.14102564102564102	0.44	negative first
24	24	0.28076171875	0.00880477410084978	incorrect	incongruent	negative	0.019230769230769232	0.06	negative first
24	194	0.2877587387242268	0.00269440062108124	correct	congruent	positive	0.15544871794871795	0.485	negative first
24	6	0.3230794270833333	0.008345340978707207	incorrect	congruent	positive	0.004807692307692308	0.015	negative first
24	184	0.3300675101902174	0.00232539012873466	correct	incongruent	positive	0.14743589743589744	0.46	negative first
24	16	0.2740478515625	0.01559136266787502	incorrect	incongruent	positive	0.01282051282051282	0.04	negative first
27	24	0.2867838541666667	0.007813531927243607	correct	congruent	test	0.019230769230769232	0.5	positive first
27	18	0.3885091145833333	0.009172952574087116	correct	incongruent	test	0.014423076923076924	0.375	positive first
27	6	0.25048828125	0.017208479590483314	incorrect	incongruent	test	0.004807692307692308	0.125	positive first
27	197	0.31113677823604063	0.005090669348366049	correct	congruent	baseline	0.1578525641025641	0.4925	positive first
27	3	0.2604166666666667	0.06307800894019888	incorrect	congruent	baseline	0.002403846153846154	0.0075	positive first
27	185	0.3955130912162162	0.007222453025260465	correct	incongruent	baseline	0.1482371794871795	0.4625	positive first
27	15	0.2353515625	0.008526799713861295	incorrect	incongruent	baseline	0.01201923076923077	0.0375	positive first
27	200	0.2916162109375	0.0045086060636585065	correct	congruent	positive	0.16025641025641027	0.5	positive first
27	183	0.3575606215846995	0.0034314207112130825	correct	incongruent	positive	0.1466346153846154	0.4575	positive first
27	17	0.23799402573529413	0.007374199821881808	incorrect	incongruent	positive	0.013621794871794872	0.0425	positive first
27	198	0.3025272253787879	0.004166415898693363	correct	congruent	negative	0.15865384615384615	0.495	positive first
27	2	0.35107421875	0.03369140625	incorrect	congruent	negative	0.0016025641025641025	0.005	positive first
27	181	0.35444902451657456	0.0036777720055551615	correct	incongruent	negative	0.1450320512820513	0.4525	positive first
27	19	0.22902960526315788	0.0070084998763136645	incorrect	incongruent	negative	0.015224358974358974	0.0475	positive first
28	24	0.3321533203125	0.00833594637136981	correct	congruent	test	0.019230769230769232	0.5	negative first
28	21	0.48507254464285715	0.02012785584656127	correct	incongruent	test	0.016826923076923076	0.4375	negative first
28	3	0.3212890625	0.03428184139236547	incorrect	incongruent	test	0.002403846153846154	0.0625	negative first
28	200	0.331884765625	0.0035221127318199106	correct	congruent	baseline	0.16025641025641027	0.5	negative first
28	187	0.43143695688502676	0.004796445355517064	correct	incongruent	baseline	0.14983974358974358	0.4675	negative first
28	13	0.32955228365384615	0.015862875668155894	incorrect	incongruent	baseline	0.010416666666666666	0.0325	negative first
28	199	0.30183142273869346	0.003236708104766907	correct	congruent	negative	0.1594551282051282	0.4975	negative first
28	1	0.26171875		incorrect	congruent	negative	0.0008012820512820513	0.0025	negative first
28	183	0.3799041581284153	0.0038385623105776138	correct	incongruent	negative	0.1466346153846154	0.4575	negative first
28	17	0.3231847426470588	0.01958171304832119	incorrect	incongruent	negative	0.013621794871794872	0.0425	negative first
28	199	0.3127453674623116	0.003740679045580743	correct	congruent	positive	0.1594551282051282	0.4975	negative first
28	1	0.416015625		incorrect	congruent	positive	0.0008012820512820513	0.0025	negative first
28	189	0.40208023313492064	0.004404177445512048	correct	incongruent	positive	0.15144230769230768	0.4725	negative first
28	11	0.3200461647727273	0.006661339304795479	incorrect	incongruent	positive	0.008814102564102564	0.0275	negative first
29	24	0.2864176432291667	0.008812713334757718	correct	congruent	test	0.019230769230769232	0.5	positive first
29	20	0.390673828125	0.019601727668469796	correct	incongruent	test	0.016025641025641024	0.4166666666666667	positive first
29	4	0.2373046875	0.009117489306094347	incorrect	incongruent	test	0.003205128205128205	0.08333333333333333	positive first
29	200	0.2866796875	0.002715412801655128	correct	congruent	baseline	0.16025641025641027	0.5	positive first
29	183	0.3494386099726776	0.0020791722346660243	correct	incongruent	baseline	0.1466346153846154	0.4575	positive first
29	17	0.24356617647058823	0.0057182881513225155	incorrect	incongruent	baseline	0.013621794871794872	0.0425	positive first
29	198	0.27319582544191917	0.0028132627505591972	correct	congruent	positive	0.15865384615384615	0.495	positive first
29	2	0.3125	0.0263671875	incorrect	congruent	positive	0.0016025641025641025	0.005	positive first
29	176	0.33979936079545453	0.0027865755311554685	correct	incongruent	positive	0.14102564102564102	0.44	positive first
29	24	0.23494466145833334	0.004619513237919019	incorrect	incongruent	positive	0.019230769230769232	0.06	positive first
29	25	0.280546875	0.006279562652326371	correct	congruent	negative	0.020032051282051284	0.0625	positive first
29	23	0.32863451086956524	0.006188173403470429	correct	incongruent	negative	0.01842948717948718	0.0575	positive first
29	3	0.2610677083333333	0.009270202386652437	incorrect	incongruent	negative	0.002403846153846154	0.0075	positive first
31	24	0.3199055989583333	0.012484659465837832	correct	congruent	test	0.019230769230769232	0.5	positive first
31	19	0.39555921052631576	0.02576148291855352	correct	incongruent	test	0.015224358974358974	0.3958333333333333	positive first
31	5	0.224609375	0.013293451426551273	incorrect	incongruent	test	0.004006410256410256	0.10416666666666667	positive first
31	197	0.2689760469543147	0.0036472044131551635	correct	congruent	baseline	0.1578525641025641	0.4925	positive first
31	3	0.2802734375	0.01318660748732363	incorrect	congruent	baseline	0.002403846153846154	0.0075	positive first
31	159	0.3454697327044025	0.004367185181674026	correct	incongruent	baseline	0.12740384615384615	0.3975	positive first
31	41	0.22932545731707318	0.0040008118955456575	incorrect	incongruent	baseline	0.032852564102564104	0.1025	positive first
31	196	0.28116031568877553	0.0038789501936907452	correct	congruent	positive	0.15705128205128205	0.49	positive first
31	4	0.349853515625	0.03802615960146451	incorrect	congruent	positive	0.003205128205128205	0.01	positive first
31	168	0.3328857421875	0.004053086273116706	correct	incongruent	positive	0.1346153846153846	0.42	positive first
31	32	0.236572265625	0.0035838302950695596	incorrect	incongruent	positive	0.02564102564102564	0.08	positive first
31	198	0.28192570233585856	0.004827008886523858	correct	congruent	negative	0.15865384615384615	0.495	positive first
31	2	0.31787109375	0.01318359375	incorrect	congruent	negative	0.0016025641025641025	0.005	positive first
31	168	0.33884974888392855	0.0037332130411583024	correct	incongruent	negative	0.1346153846153846	0.42	positive first
31	32	0.228424072265625	0.00497552468266598	incorrect	incongruent	negative	0.02564102564102564	0.08	positive first
32	25	0.3013671875	0.009665502368483299	correct	congruent	test	0.020032051282051284	0.5208333333333334	negative first
32	19	0.40054481907894735	0.010655725302533009	correct	incongruent	test	0.015224358974358974	0.3958333333333333	negative first
32	3	0.2587890625	0.003429574789340084	incorrect	incongruent	test	0.002403846153846154	0.0625	negative first
32	1	miss	miss	miss	incongruent	test	miss	miss	negative first
32	202	0.3111995281559406	0.004664399930188513	correct	congruent	baseline	0.16185897435897437	0.505	negative first
32	178	0.3813750877808989	0.003720101512210455	correct	incongruent	baseline	0.14262820512820512	0.445	negative first
32	20	0.26884765625	0.00961857314274169	incorrect	incongruent	baseline	0.016025641025641024	0.05	negative first
32	35	0.30128348214285716	0.007943561920415761	correct	congruent	negative	0.028044871794871796	0.0875	negative first
32	32	0.36669921875	0.00989403743455796	correct	incongruent	negative	0.02564102564102564	0.08	negative first
32	5	0.2630859375	0.010113906622949136	incorrect	incongruent	negative	0.004006410256410256	0.0125	negative first
32	197	0.2982233502538071	0.003531302246345008	correct	congruent	positive	0.1578525641025641	0.4925	negative first
32	1	miss	miss	miss	congruent	positive	miss	miss	negative first
32	182	0.37020840487637363	0.004785501062551466	correct	incongruent	positive	0.14583333333333334	0.455	negative first
32	20	0.289990234375	0.038799191906959296	incorrect	incongruent	positive	0.016025641025641024	0.05	negative first
33	20	0.323583984375	0.016134570110974487	correct	congruent	test	0.016025641025641024	0.4166666666666667	positive first
33	4	0.404296875	0.007751224544134543	incorrect	congruent	test	0.003205128205128205	0.08333333333333333	positive first
33	19	0.4642783717105263	0.0329657207021	correct	incongruent	test	0.015224358974358974	0.3958333333333333	positive first
33	3	0.3245442708333333	0.007358499059542523	incorrect	incongruent	test	0.002403846153846154	0.0625	positive first
33	2	miss	miss	miss	incongruent	test	miss	miss	positive first
33	195	0.3242137419871795	0.004697754872487313	correct	congruent	baseline	0.15625	0.4875	positive first
33	4	0.2900390625	0.016287430910992027	incorrect	congruent	baseline	0.003205128205128205	0.01	positive first
33	1	miss	miss	miss	congruent	baseline	miss	miss	positive first
33	168	0.43503534226190477	0.006690276883583436	correct	incongruent	baseline	0.1346153846153846	0.42	positive first
33	30	0.2947265625	0.012959152577576794	incorrect	incongruent	baseline	0.02403846153846154	0.075	positive first
33	2	miss	miss	miss	incongruent	baseline	miss	miss	positive first
33	196	0.316585618622449	0.004411165853361267	correct	congruent	positive	0.15705128205128205	0.49	positive first
33	1	0.3681640625		incorrect	congruent	positive	0.0008012820512820513	0.0025	positive first
33	3	miss	miss	miss	congruent	positive	miss	miss	positive first
33	174	0.4104424838362069	0.004221116711011361	correct	incongruent	positive	0.13942307692307693	0.435	positive first
33	26	0.3127629206730769	0.02296674911541839	incorrect	incongruent	positive	0.020833333333333332	0.065	positive first
33	200	0.35392578125	0.006008131526663747	correct	congruent	negative	0.16025641025641027	0.5	positive first
33	187	0.4248099097593583	0.005377704274978706	correct	incongruent	negative	0.14983974358974358	0.4675	positive first
33	12	0.2691243489583333	0.007411450168273116	incorrect	incongruent	negative	0.009615384615384616	0.03	positive first
33	1	miss	miss	miss	incongruent	negative	miss	miss	positive first
35	20	0.40703125	0.02836251605253461	correct	congruent	test	0.016025641025641024	0.4166666666666667	negative first
35	4	0.416259765625	0.005823662325135041	incorrect	congruent	test	0.003205128205128205	0.08333333333333333	negative first
35	18	0.4697808159722222	0.028430856617351723	correct	incongruent	test	0.014423076923076924	0.375	negative first
35	6	0.28271484375	0.015715780393517807	incorrect	incongruent	test	0.004807692307692308	0.125	negative first
35	193	0.3435324238989637	0.006166814528258435	correct	congruent	baseline	0.1546474358974359	0.4825	negative first
35	7	0.43275669642857145	0.049373088232364984	incorrect	congruent	baseline	0.005608974358974359	0.0175	negative first
35	145	0.41909348060344825	0.00499150650084196	correct	incongruent	baseline	0.11618589743589744	0.3625	negative first
35	55	0.30319602272727275	0.010916678747136307	incorrect	incongruent	baseline	0.044070512820512824	0.1375	negative first
35	194	0.3200356394974227	0.004175693687175176	correct	congruent	negative	0.15544871794871795	0.485	negative first
35	6	0.32958984375	0.03663498000614244	incorrect	congruent	negative	0.004807692307692308	0.015	negative first
35	136	0.39944996553308826	0.006060897282588985	correct	incongruent	negative	0.10897435897435898	0.34	negative first
35	64	0.2847900390625	0.006895930890329071	incorrect	incongruent	negative	0.05128205128205128	0.16	negative first
35	194	0.3200910115979381	0.005528281621374289	correct	congruent	positive	0.15544871794871795	0.485	negative first
35	6	0.3553059895833333	0.026402629375848946	incorrect	congruent	positive	0.004807692307692308	0.015	negative first
35	133	0.38953095629699247	0.005460110858599026	correct	incongruent	positive	0.10657051282051282	0.3325	negative first
35	67	0.2835529384328358	0.005729204115262948	incorrect	incongruent	positive	0.05368589743589743	0.1675	negative first
36	21	0.33151971726190477	0.012607839358843841	correct	congruent	test	0.016826923076923076	0.4375	negative first
36	3	0.431640625	0.037834708257442416	incorrect	congruent	test	0.002403846153846154	0.0625	negative first
36	23	0.43660835597826086	0.015408295622085793	correct	incongruent	test	0.01842948717948718	0.4791666666666667	negative first
36	1	0.263671875		incorrect	incongruent	test	0.0008012820512820513	0.020833333333333332	negative first
36	197	0.31294614530456855	0.00446063517817108	correct	congruent	baseline	0.1578525641025641	0.4925	negative first
36	1	0.3603515625		incorrect	congruent	baseline	0.0008012820512820513	0.0025	negative first
36	2	miss	miss	miss	congruent	baseline	miss	miss	negative first
36	169	0.41136395155325445	0.005256613502810528	correct	incongruent	baseline	0.13541666666666666	0.4225	negative first
36	31	0.2580015120967742	0.010209022084018757	incorrect	incongruent	baseline	0.024839743589743588	0.0775	negative first
36	196	0.3097397161989796	0.003873406866113695	correct	congruent	negative	0.15705128205128205	0.49	negative first
36	4	0.353759765625	0.021507943837145535	incorrect	congruent	negative	0.003205128205128205	0.01	negative first
36	172	0.400890261627907	0.003871141974223553	correct	incongruent	negative	0.13782051282051283	0.43	negative first
36	28	0.279052734375	0.009564313871455565	incorrect	incongruent	negative	0.022435897435897436	0.07	negative first
36	198	0.30130898832070707	0.003872136847060352	correct	congruent	positive	0.15865384615384615	0.495	negative first
36	2	0.3818359375	0.05175781249999999	incorrect	congruent	positive	0.0016025641025641025	0.005	negative first
36	170	0.38474264705882355	0.003520027415331666	correct	incongruent	positive	0.1362179487179487	0.425	negative first
36	30	0.262890625	0.009351679417822686	incorrect	incongruent	positive	0.02403846153846154	0.075	negative first
37	24	0.3440348307291667	0.014039275566257718	correct	congruent	test	0.019230769230769232	0.5	positive first
37	20	0.4412109375	0.022133922546162088	correct	incongruent	test	0.016025641025641024	0.4166666666666667	positive first
37	4	0.273681640625	0.02223824942978687	incorrect	incongruent	test	0.003205128205128205	0.08333333333333333	positive first
37	198	0.32734079071969696	0.0035047157852987508	correct	congruent	baseline	0.15865384615384615	0.495	positive first
37	2	0.470703125	0.1318359375	incorrect	congruent	baseline	0.0016025641025641025	0.005	positive first
37	179	0.39820290677374304	0.003232178390985277	correct	incongruent	baseline	0.14342948717948717	0.4475	positive first
37	21	0.2716703869047619	0.007318983448743684	incorrect	incongruent	baseline	0.016826923076923076	0.0525	positive first
37	199	0.3421943702889447	0.00389563405874524	correct	congruent	positive	0.1594551282051282	0.4975	positive first
37	1	miss	miss	miss	congruent	positive	miss	miss	positive first
37	192	0.382415771484375	0.0026956390084487353	correct	incongruent	positive	0.15384615384615385	0.48	positive first
37	8	0.2735595703125	0.01002793208732609	incorrect	incongruent	positive	0.00641025641025641	0.02	positive first
37	199	0.3362711997487437	0.0033485404105110203	correct	congruent	negative	0.1594551282051282	0.4975	positive first
37	1	0.384765625		incorrect	congruent	negative	0.0008012820512820513	0.0025	positive first
37	189	0.3803581762566138	0.002064133608578706	correct	incongruent	negative	0.15144230769230768	0.4725	positive first
37	10	0.3248046875	0.024076309535035118	incorrect	incongruent	negative	0.008012820512820512	0.025	positive first
37	1	miss	miss	miss	incongruent	negative	miss	miss	positive first
38	23	0.34897248641304346	0.01696613836651409	correct	congruent	test	0.01842948717948718	0.4791666666666667	positive first
38	1	0.814453125		incorrect	congruent	test	0.0008012820512820513	0.020833333333333332	positive first
38	21	0.39090401785714285	0.011563514627081675	correct	incongruent	test	0.016826923076923076	0.4375	positive first
38	3	0.3072916666666667	0.03248854476020511	incorrect	incongruent	test	0.002403846153846154	0.0625	positive first
38	200	0.3471826171875	0.0060994322376263215	correct	congruent	baseline	0.16025641025641027	0.5	positive first
38	1	miss	miss	miss	congruent	baseline	miss	miss	positive first
38	174	0.40672144396551724	0.005575503767441125	correct	incongruent	baseline	0.13942307692307693	0.435	positive first
38	23	0.3104194972826087	0.02371269802316155	incorrect	incongruent	baseline	0.01842948717948718	0.0575	positive first
38	2	miss	miss	miss	incongruent	baseline	miss	miss	positive first
38	196	0.32406927614795916	0.005838931274569061	correct	congruent	positive	0.15705128205128205	0.49	positive first
38	5	0.3974609375	0.02386291965217525	incorrect	congruent	positive	0.004006410256410256	0.0125	positive first
38	168	0.38327171688988093	0.0039665579100265635	correct	incongruent	positive	0.1346153846153846	0.42	positive first
38	31	0.27249243951612906	0.005064553702655083	incorrect	incongruent	positive	0.024839743589743588	0.0775	positive first
38	172	0.3319858284883721	0.006280002793966351	correct	congruent	negative	0.13782051282051283	0.43	positive first
38	2	0.3583984375	0.0263671875	incorrect	congruent	negative	0.0016025641025641025	0.005	positive first
38	145	0.3866985452586207	0.00836262033887323	correct	incongruent	negative	0.11618589743589744	0.3625	positive first
38	33	0.2667791193181818	0.004324398645809372	incorrect	incongruent	negative	0.026442307692307692	0.0825	positive first
